"Wavelength (nm)"	"Absorbance (AU)"	"Std.Dev."
     190.0	  -7.16805E-2	   6.93342E-2
     191.0	   6.47244E-2	   6.91362E-2
     192.0	  -1.33195E-2	   7.48760E-2
     193.0	  -1.85647E-2	   5.23168E-2
     194.0	   2.32763E-2	   6.20732E-2
     195.0	   4.54984E-2	   6.59216E-2
     196.0	   3.00355E-2	   6.20550E-2
     197.0	   6.86264E-3	   5.49680E-2
     198.0	   2.05588E-2	   6.57006E-2
     199.0	   9.47771E-2	   8.14552E-2
     200.0	   9.57184E-2	   5.99573E-2
     201.0	   3.20053E-3	   6.79220E-2
     202.0	   3.03111E-2	   6.43328E-2
     203.0	   4.35410E-2	   7.24024E-2
     204.0	  -9.43193E-2	   7.47278E-2
     205.0	   8.69617E-2	   8.29158E-2
     206.0	  -4.12846E-3	     0.116600
     207.0	   6.04868E-2	   7.99112E-2
     208.0	   5.65443E-2	   6.78974E-2
     209.0	   9.64193E-2	   5.39302E-2
     210.0	   7.13735E-2	   6.07150E-2
     211.0	   3.61304E-2	   9.54612E-2
     212.0	     0.108745	   7.70000E-2
     213.0	   1.44348E-2	   6.77269E-2
     214.0	     0.109672	   6.69070E-2
     215.0	  -1.34130E-2	   7.89492E-2
     216.0	   4.52738E-2	   6.63919E-2
     217.0	  -8.23021E-4	   4.82015E-2
     218.0	   5.65157E-2	   6.26505E-2
     219.0	   4.72574E-2	   8.56708E-2
     220.0	   3.60308E-2	   6.41454E-2
     221.0	    -0.141219	   8.84099E-2
     222.0	   8.18286E-2	   6.94613E-2
     223.0	  -5.78728E-2	   5.97970E-2
     224.0	  -6.20790E-2	   6.65712E-2
     225.0	  -6.36339E-3	   6.86291E-2
     226.0	   9.70392E-2	     0.109649
     227.0	     0.140790	   8.16613E-2
     228.0	    -0.103156	     0.105208
     229.0	     0.124219	   8.48528E-2
     230.0	  -6.36692E-2	   9.31274E-2
     231.0	   8.36267E-2	   8.55942E-2
     232.0	   2.56271E-2	   8.02387E-2
     233.0	    -0.129038	   7.30695E-2
     234.0	     0.143438	   5.94391E-2
     235.0	   9.75714E-2	   7.15661E-2
     236.0	   7.45258E-2	     0.124367
     237.0	  -9.63016E-2	     0.141349
     238.0	     0.147311	   8.06004E-2
     239.0	  -1.02067E-2	   6.61995E-2
     240.0	  -2.85683E-2	   6.79360E-2
     241.0	     0.153253	     0.100482
     242.0	  -3.66187E-2	     0.118583
     243.0	  -2.42376E-2	     0.120914
     244.0	   5.74574E-2	     0.129091
     245.0	     0.215366	   8.45206E-2
     246.0	  -2.11563E-2	   7.31999E-2
     247.0	   2.54946E-2	   6.25210E-2
     248.0	     0.179474	   8.97827E-2
     249.0	  -7.35726E-2	   7.73059E-2
     250.0	  -8.55818E-2	   5.51369E-2
     251.0	   3.77178E-2	   5.87482E-2
     252.0	   2.56300E-3	   6.26296E-2
     253.0	   7.07803E-2	   5.61704E-2
     254.0	   6.74391E-3	   7.68853E-2
     255.0	     0.165544	   7.47979E-2
     256.0	   8.04939E-2	   4.76243E-2
     257.0	   9.77001E-2	   4.84544E-2
     258.0	   9.45320E-2	   6.39742E-2
     259.0	   6.49662E-2	   8.87920E-2
     260.0	     0.154125	   7.99813E-2
     261.0	  -2.17571E-2	   7.58111E-2
     262.0	   9.55448E-2	     0.105451
     263.0	   6.25472E-2	   7.43086E-2
     264.0	  -5.69773E-3	   7.81006E-2
     265.0	   9.71260E-2	   9.18151E-2
     266.0	   9.15527E-5	   9.28479E-2
     267.0	   9.69100E-2	   5.49669E-2
     268.0	   1.04904E-3	   7.14711E-2
     269.0	     0.149037	   6.22784E-2
     270.0	   6.32749E-2	   7.17657E-2
     271.0	   7.13172E-2	   7.72411E-2
     272.0	   5.68147E-2	   8.07792E-2
     273.0	   8.59451E-2	   7.04040E-2
     274.0	   7.27744E-2	   6.14032E-2
     275.0	   6.38332E-2	   6.07258E-2
     276.0	     0.267269	   4.72158E-2
     277.0	     0.112084	   4.18778E-2
     278.0	     0.101499	   4.27706E-2
     279.0	   9.54309E-2	   5.12800E-2
     280.0	     0.115102	   7.12104E-2
     281.0	     0.174224	   6.10059E-2
     282.0	     0.174164	   6.14168E-2
     283.0	     0.215091	   5.44647E-2
     284.0	     0.214711	   2.95329E-2
     285.0	     0.199129	   1.68590E-2
     286.0	     0.288417	   1.28719E-2
     287.0	     0.313689	   1.07865E-2
     288.0	     0.326443	   6.31574E-3
     289.0	     0.308434	   5.00600E-3
     290.0	     0.297067	   3.86551E-3
     291.0	     0.282186	   3.45820E-3
     292.0	     0.267414	   2.63288E-3
     293.0	     0.261795	   1.22980E-3
     294.0	     0.250015	   1.01279E-3
     295.0	     0.238759	   8.22649E-4
     296.0	     0.226695	   5.47698E-4
     297.0	     0.215719	   4.64117E-4
     298.0	     0.204525	   2.69186E-4
     299.0	     0.193326	   2.30970E-4
     300.0	     0.183067	   2.07472E-4
     301.0	     0.172884	   1.97482E-4
     302.0	     0.164155	   1.76633E-4
     303.0	     0.154924	   1.02964E-4
     304.0	     0.147177	   1.19143E-4
     305.0	     0.140607	   1.82439E-4
     306.0	     0.134508	   1.43701E-4
     307.0	     0.129696	   1.43831E-4
     308.0	     0.125284	   1.57032E-4
     309.0	     0.122160	   1.84052E-4
     310.0	     0.119682	   2.14048E-4
     311.0	     0.117779	   1.21721E-4
     312.0	     0.117007	   1.06611E-4
     313.0	     0.116786	   1.27021E-4
     314.0	     0.117578	   9.67427E-5
     315.0	     0.119161	   6.54414E-5
     316.0	     0.121436	   8.38068E-5
     317.0	     0.124486	   8.43557E-5
     318.0	     0.128257	   9.10622E-5
     319.0	     0.132667	   7.61313E-5
     320.0	     0.137715	   7.98898E-5
     321.0	     0.143561	   9.66322E-5
     322.0	     0.149963	   1.05907E-4
     323.0	     0.156860	   1.14566E-4
     324.0	     0.164358	   9.07821E-5
     325.0	     0.172163	   1.01188E-4
     326.0	     0.180589	   1.41966E-4
     327.0	     0.189011	   1.51982E-4
     328.0	     0.197918	   1.45137E-4
     329.0	     0.207199	   1.40057E-4
     330.0	     0.216947	   1.64994E-4
     331.0	     0.226781	   1.56400E-4
     332.0	     0.236399	   1.39096E-4
     333.0	     0.246817	   1.68020E-4
     334.0	     0.256851	   1.34214E-4
     335.0	     0.266831	   1.60857E-4
     336.0	     0.276594	   1.71022E-4
     337.0	     0.286451	   2.10008E-4
     338.0	     0.296357	   1.56876E-4
     339.0	     0.307088	   2.03323E-4
     340.0	     0.317248	   2.33313E-4
     341.0	     0.327313	   1.75569E-4
     342.0	     0.337065	   1.22687E-4
     343.0	     0.346714	   1.69158E-4
     344.0	     0.355918	   1.98158E-4
     345.0	     0.364877	   2.97326E-4
     346.0	     0.373417	   4.01849E-4
     347.0	     0.382133	   2.50619E-4
     348.0	     0.390031	   1.63680E-4
     349.0	     0.398620	   1.74848E-4
     350.0	     0.406817	   3.04770E-4
     351.0	     0.414775	   1.94853E-4
     352.0	     0.422202	   2.24857E-4
     353.0	     0.428757	   2.07603E-4
     354.0	     0.434779	   2.47132E-4
     355.0	     0.439430	   2.96542E-4
     356.0	     0.444825	   3.59787E-4
     357.0	     0.450297	   3.95719E-4
     358.0	     0.454673	   4.34566E-4
     359.0	     0.459614	   2.56870E-4
     360.0	     0.463741	   2.50161E-4
     361.0	     0.467555	   2.18239E-4
     362.0	     0.469329	   2.80847E-4
     363.0	     0.471632	   2.73483E-4
     364.0	     0.472277	   2.60254E-4
     365.0	     0.473605	   2.52333E-4
     366.0	     0.473484	   3.15509E-4
     367.0	     0.472658	   3.00412E-4
     368.0	     0.471499	   2.67981E-4
     369.0	     0.470081	   2.90957E-4
     370.0	     0.468233	   2.07625E-4
     371.0	     0.465869	   2.39731E-4
     372.0	     0.463022	   2.02682E-4
     373.0	     0.458883	   2.49075E-4
     374.0	     0.453036	   1.84580E-4
     375.0	     0.446913	   1.62620E-4
     376.0	     0.439687	   1.93330E-4
     377.0	     0.431457	   2.21232E-4
     378.0	     0.423644	   1.94718E-4
     379.0	     0.414574	   1.68371E-4
     380.0	     0.405260	   1.42321E-4
     381.0	     0.395912	   1.46326E-4
     382.0	     0.386025	   1.78100E-4
     383.0	     0.375390	   1.89217E-4
     384.0	     0.364232	   1.81193E-4
     385.0	     0.353455	   1.52379E-4
     386.0	     0.341482	   1.53227E-4
     387.0	     0.328615	   1.81904E-4
     388.0	     0.315939	   1.33617E-4
     389.0	     0.303378	   1.06040E-4
     390.0	     0.289653	   1.00018E-4
     391.0	     0.276280	   1.05315E-4
     392.0	     0.262520	   1.53894E-4
     393.0	     0.249764	   1.27988E-4
     394.0	     0.237440	   1.26526E-4
     395.0	     0.225126	   1.41144E-4
     396.0	     0.213322	   1.09469E-4
     397.0	     0.201627	   1.06207E-4
     398.0	     0.191019	   1.21383E-4
     399.0	     0.180719	   1.59272E-4
     400.0	     0.170842	   1.22387E-4
     401.0	     0.161161	   1.64148E-4
     402.0	     0.151598	   1.42586E-4
     403.0	     0.142530	   1.07270E-4
     404.0	     0.133846	   1.45500E-4
     405.0	     0.125458	   1.04420E-4
     406.0	     0.118290	   8.43180E-5
     407.0	     0.111250	   8.29710E-5
     408.0	     0.105016	   9.76737E-5
     409.0	   9.95655E-2	   1.11135E-4
     410.0	   9.46765E-2	   1.24549E-4
     411.0	   9.05299E-2	   1.35180E-4
     412.0	   8.70571E-2	   7.62746E-5
     413.0	   8.34460E-2	   1.06667E-4
     414.0	   8.07304E-2	   1.06184E-4
     415.0	   7.83615E-2	   1.34316E-4
     416.0	   7.60951E-2	   9.22455E-5
     417.0	   7.40933E-2	   1.11881E-4
     418.0	   7.24716E-2	   1.44899E-4
     419.0	   7.08184E-2	   1.52805E-4
     420.0	   6.95124E-2	   1.44726E-4
     421.0	   6.81705E-2	   1.48535E-4
     422.0	   6.68578E-2	   1.10004E-4
     423.0	   6.54054E-2	   1.18674E-4
     424.0	   6.43067E-2	   1.38595E-4
     425.0	   6.32701E-2	   1.57965E-4
     426.0	   6.23693E-2	   1.69002E-4
     427.0	   6.12073E-2	   1.44685E-4
     428.0	   6.02989E-2	   1.57625E-4
     429.0	   5.94726E-2	   1.19729E-4
     430.0	   5.82218E-2	   1.93448E-4
     431.0	   5.75948E-2	   1.94601E-4
     432.0	   5.66158E-2	   1.66060E-4
     433.0	   5.63178E-2	   1.59708E-4
     434.0	   5.48458E-2	   1.54857E-4
     435.0	   5.38931E-2	   1.56568E-4
     436.0	   5.29470E-2	   1.61641E-4
     437.0	   5.22180E-2	   1.63092E-4
     438.0	   5.17230E-2	   1.40268E-4
     439.0	   5.05204E-2	   1.54257E-4
     440.0	   4.96964E-2	   1.45563E-4
     441.0	   4.86522E-2	   1.66893E-4
     442.0	   4.76437E-2	   1.58247E-4
     443.0	   4.71306E-2	   1.22869E-4
     444.0	   4.60048E-2	   8.76239E-5
     445.0	   4.53191E-2	   1.10330E-4
     446.0	   4.41680E-2	   1.33160E-4
     447.0	   4.33288E-2	   1.14671E-4
     448.0	   4.27008E-2	   1.16458E-4
     449.0	   4.15735E-2	   1.34647E-4
     450.0	   4.05822E-2	   1.30235E-4
     451.0	   3.99423E-2	   1.43543E-4
     452.0	   3.90949E-2	   2.18768E-4
     453.0	   3.80254E-2	   1.81414E-4
     454.0	   3.73831E-2	   1.56184E-4
     455.0	   3.64676E-2	   1.61019E-4
     456.0	   3.56116E-2	   1.74405E-4
     457.0	   3.48048E-2	   1.74071E-4
     458.0	   3.38726E-2	   1.65994E-4
     459.0	   3.27172E-2	   1.32059E-4
     460.0	   3.21136E-2	   1.46543E-4
     461.0	   3.10903E-2	   1.74097E-4
     462.0	   3.01151E-2	   1.53944E-4
     463.0	   3.00970E-2	   1.30451E-4
     464.0	   2.89798E-2	   1.50605E-4
     465.0	   2.79598E-2	   1.43140E-4
     466.0	   2.71559E-2	   1.30925E-4
     467.0	   2.62604E-2	   1.49389E-4
     468.0	   2.55742E-2	   1.13747E-4
     469.0	   2.45452E-2	   1.44742E-4
     470.0	   2.39458E-2	   1.26444E-4
     471.0	   2.33083E-2	   1.35452E-4
     472.0	   2.27304E-2	   2.07209E-4
     473.0	   2.16308E-2	   1.89164E-4
     474.0	   2.10338E-2	   1.43362E-4
     475.0	   2.06013E-2	   1.00891E-4
     476.0	   1.97349E-2	   1.19710E-4
     477.0	   1.91498E-2	   1.37914E-4
     478.0	   1.80168E-2	   1.39034E-4
     479.0	   1.78185E-2	   1.37313E-4
     480.0	   1.70689E-2	   9.02647E-5
     481.0	   1.63450E-2	   5.48850E-5
     482.0	   1.58119E-2	   5.47875E-5
     483.0	   1.53975E-2	   7.65617E-5
     484.0	   1.54114E-2	   9.32092E-5
     485.0	   1.51515E-2	   5.99584E-5
     486.0	   1.37906E-2	   6.50267E-5
     487.0	   1.26095E-2	   8.01838E-5
     488.0	   1.23100E-2	   6.00190E-5
     489.0	   1.18489E-2	   5.66153E-5
     490.0	   1.12977E-2	   5.74811E-5
     491.0	   1.07179E-2	   8.43786E-5
     492.0	   1.02067E-2	   1.21435E-4
     493.0	   9.99165E-3	   1.19406E-4
     494.0	   9.25684E-3	   1.32790E-4
     495.0	   8.79049E-3	   1.05507E-4
     496.0	   8.42381E-3	   7.97673E-5
     497.0	   7.85065E-3	   9.34649E-5
     498.0	   7.65038E-3	   9.38970E-5
     499.0	   6.80208E-3	   1.15804E-4
     500.0	   6.67858E-3	   1.08193E-4
     501.0	   6.22654E-3	   1.16659E-4
     502.0	   5.92804E-3	   1.06025E-4
     503.0	   5.42974E-3	   9.41122E-5
     504.0	   4.95625E-3	   1.10581E-4
     505.0	   4.82178E-3	   9.02697E-5
     506.0	   4.40598E-3	   8.94702E-5
     507.0	   4.10461E-3	   1.10589E-4
     508.0	   3.82710E-3	   1.23423E-4
     509.0	   3.65448E-3	   8.59154E-5
     510.0	   3.21627E-3	   6.56115E-5
     511.0	   3.04985E-3	   6.98351E-5
     512.0	   2.48909E-3	   1.07141E-4
     513.0	   2.42186E-3	   9.73869E-5
     514.0	   2.05088E-3	   1.12183E-4
     515.0	   1.99032E-3	   1.14423E-4
     516.0	   1.78480E-3	   1.10651E-4
     517.0	   1.36089E-3	   9.79480E-5
     518.0	   1.27172E-3	   7.60731E-5
     519.0	   1.13201E-3	   6.93860E-5
     520.0	   9.18388E-4	   6.59950E-5
     521.0	   5.80311E-4	   7.76205E-5
     522.0	   4.50134E-4	   8.10160E-5
     523.0	   4.10557E-4	   9.35598E-5
     524.0	   3.71456E-4	   8.55667E-5
     525.0	   1.25408E-4	   6.82960E-5
     526.0	   1.07765E-4	   8.45549E-5
     527.0	  -6.77109E-5	   6.77528E-5
     528.0	  -1.01566E-4	   9.40470E-5
     529.0	  -2.56538E-4	   8.90576E-5
     530.0	  -5.08785E-4	   8.23673E-5
     531.0	  -5.56469E-4	   6.26855E-5
     532.0	  -4.95911E-4	   5.86519E-5
     533.0	  -5.42641E-4	   8.54670E-5
     534.0	  -6.01768E-4	   9.77807E-5
     535.0	  -7.75337E-4	   1.03957E-4
     536.0	  -8.95977E-4	   7.62105E-5
     537.0	  -8.98361E-4	   8.66323E-5
     538.0	  -8.35419E-4	   7.63773E-5
     539.0	  -9.85622E-4	   8.35636E-5
     540.0	  -9.07421E-4	   1.04001E-4
     541.0	  -1.10865E-3	   8.97113E-5
     542.0	  -1.03760E-3	   7.21349E-5
     543.0	  -1.17016E-3	   5.74890E-5
     544.0	  -1.27888E-3	   6.16505E-5
     545.0	  -1.23501E-3	   6.27725E-5
     546.0	  -1.26743E-3	   9.26832E-5
     547.0	  -1.34945E-3	   9.07595E-5
     548.0	  -1.34277E-3	   8.31599E-5
     549.0	  -1.42336E-3	   6.64773E-5
     550.0	  -1.60122E-3	   5.68527E-5
     551.0	  -1.41764E-3	   7.44019E-5
     552.0	  -1.55926E-3	   5.55930E-5
     553.0	  -1.66559E-3	   5.94232E-5
     554.0	  -1.77240E-3	   8.39707E-5
     555.0	  -1.71852E-3	   5.29257E-5
     556.0	  -1.84488E-3	   5.29064E-5
     557.0	  -1.87349E-3	   7.66878E-5
     558.0	  -1.87016E-3	   8.82239E-5
     559.0	  -1.92928E-3	   8.13423E-5
     560.0	  -1.91975E-3	   5.67096E-5
     561.0	  -1.95980E-3	   4.65289E-5
     562.0	  -1.89066E-3	   5.36299E-5
     563.0	  -1.99366E-3	   6.54275E-5
     564.0	  -1.91402E-3	   6.14547E-5
     565.0	  -2.08282E-3	   5.93255E-5
     566.0	  -2.09999E-3	   5.97618E-5
     567.0	  -1.97601E-3	   5.80097E-5
     568.0	  -1.81866E-3	   4.73740E-5
     569.0	  -1.61505E-3	   4.39014E-5
     570.0	  -1.50108E-3	   6.83875E-5
     571.0	  -1.42860E-3	   4.10128E-5
     572.0	  -1.47867E-3	   4.09518E-5
     573.0	  -1.33657E-3	   5.24076E-5
     574.0	  -1.27602E-3	   5.10049E-5
     575.0	  -1.53828E-3	   7.15272E-5
     576.0	  -1.33610E-3	   5.12794E-5
     577.0	  -1.04094E-3	   4.80649E-5
     578.0	  -1.35899E-3	   5.14067E-5
     579.0	  -1.33801E-3	   5.02798E-5
     580.0	  -1.06764E-3	   6.41253E-5
     581.0	  -7.39574E-4	   4.77742E-5
     582.0	  -1.35803E-3	   7.12181E-5
     583.0	  -1.73903E-3	   6.63609E-5
     584.0	  -1.25265E-3	   5.40984E-5
     585.0	  -1.33610E-3	   5.57471E-5
     586.0	  -1.64509E-3	   5.35227E-5
     587.0	  -1.42860E-3	   5.86141E-5
     588.0	  -1.51443E-3	   7.27923E-5
     589.0	  -1.97792E-3	   4.28955E-5
     590.0	  -2.02513E-3	   4.43369E-5
     591.0	  -2.02227E-3	   6.88695E-5
     592.0	  -1.78766E-3	   6.47604E-5
     593.0	  -1.66130E-3	   7.30449E-5
     594.0	  -1.77479E-3	   6.69120E-5
     595.0	  -1.58596E-3	   8.19897E-5
     596.0	  -2.00176E-3	   6.54606E-5
     597.0	  -1.91307E-3	   6.93958E-5
     598.0	  -1.82199E-3	   5.99034E-5
     599.0	  -1.69754E-3	   6.03505E-5
     600.0	  -1.84727E-3	   5.53758E-5
     601.0	  -1.69754E-3	   4.61893E-5
     602.0	  -1.82533E-3	   6.56028E-5
     603.0	  -1.77956E-3	   7.57541E-5
     604.0	  -2.02799E-3	   7.16621E-5
     605.0	  -1.95551E-3	   8.71347E-5
     606.0	  -1.87492E-3	   7.03363E-5
     607.0	  -2.03800E-3	   6.14713E-5
     608.0	  -2.11859E-3	   5.83137E-5
     609.0	  -2.18248E-3	   6.83692E-5
     610.0	  -1.93787E-3	   6.91101E-5
     611.0	  -2.13051E-3	   6.06652E-5
     612.0	  -2.23923E-3	   5.69875E-5
     613.0	  -1.94407E-3	   5.82376E-5
     614.0	  -2.03753E-3	   6.39335E-5
     615.0	  -2.06900E-3	   6.64346E-5
     616.0	  -2.25878E-3	   6.06540E-5
     617.0	  -2.15197E-3	   5.99517E-5
     618.0	  -2.28405E-3	   6.31625E-5
     619.0	  -2.29216E-3	   7.75033E-5
     620.0	  -2.07663E-3	   5.50339E-5
     621.0	  -2.35462E-3	   6.49847E-5
     622.0	  -1.92690E-3	   4.88357E-5
     623.0	  -1.53828E-3	   5.47865E-5
     624.0	  -1.30796E-3	   7.30184E-5
     625.0	  -1.16682E-3	   9.13912E-5
     626.0	  -1.65939E-3	   6.18144E-5
     627.0	  -2.94209E-3	   8.72938E-5
     628.0	  -3.57199E-3	   6.49864E-5
     629.0	  -3.19338E-3	   4.35556E-5
     630.0	  -2.71988E-3	   7.10087E-5
     631.0	  -2.41613E-3	   6.65628E-5
     632.0	  -1.92451E-3	   6.66345E-5
     633.0	  -2.51436E-3	   7.37697E-5
     634.0	  -2.41041E-3	   8.19786E-5
     635.0	  -2.29120E-3	   5.30673E-5
     636.0	  -1.98555E-3	   4.83443E-5
     637.0	  -2.03705E-3	   6.72154E-5
     638.0	  -2.21014E-3	   7.90946E-5
     639.0	  -2.42043E-3	   8.48583E-5
     640.0	  -2.32744E-3	   1.09001E-4
     641.0	  -2.10667E-3	   9.79642E-5
     642.0	  -2.16055E-3	   9.19962E-5
     643.0	  -2.26593E-3	   8.80459E-5
     644.0	  -2.28691E-3	   1.22832E-4
     645.0	  -2.21395E-3	   1.01125E-4
     646.0	  -1.90401E-3	   1.21062E-4
     647.0	  -2.01797E-3	   1.14421E-4
     648.0	  -1.97887E-3	   7.95247E-5
     649.0	  -2.12765E-3	   9.98106E-5
     650.0	  -2.18201E-3	   9.34358E-5
     651.0	  -2.42949E-3	   6.35000E-5
     652.0	  -2.35081E-3	   6.20841E-5
     653.0	  -2.30980E-3	   6.81043E-5
     654.0	  -1.56450E-3	   1.07450E-4
     655.0	  -1.00470E-3	   6.85436E-5
     656.0	   1.15538E-3	   8.84658E-5
     657.0	   6.07967E-4	   1.01134E-4
     658.0	  -1.76048E-3	   6.61911E-5
     659.0	  -2.05231E-3	   5.46379E-5
     660.0	  -2.14052E-3	   5.40290E-5
     661.0	  -2.12669E-3	   5.10761E-5
     662.0	  -2.07376E-3	   8.31052E-5
     663.0	  -2.01321E-3	   1.03615E-4
     664.0	  -2.01893E-3	   7.98813E-5
     665.0	  -1.98555E-3	   7.39359E-5
     666.0	  -1.94216E-3	   1.01368E-4
     667.0	  -1.84298E-3	   7.87576E-5
     668.0	  -2.00367E-3	   9.90583E-5
     669.0	  -1.79386E-3	   6.03128E-5
     670.0	  -1.84870E-3	   3.50962E-5
     671.0	  -1.76144E-3	   5.44576E-5
     672.0	  -1.64795E-3	   6.35894E-5
     673.0	  -1.73235E-3	   5.63284E-5
     674.0	  -1.77574E-3	   6.14084E-5
     675.0	  -1.77050E-3	   6.03599E-5
     676.0	  -1.68324E-3	   6.16947E-5
     677.0	  -1.67847E-3	   5.78881E-5
     678.0	  -1.72997E-3	   7.44233E-5
     679.0	  -1.63651E-3	   7.00253E-5
     680.0	  -1.57404E-3	   8.08489E-5
     681.0	  -1.47009E-3	   7.38390E-5
     682.0	  -1.40715E-3	   8.13297E-5
     683.0	  -1.39999E-3	   7.00805E-5
     684.0	  -1.38664E-3	   7.84944E-5
     685.0	  -1.30367E-3	   6.50407E-5
     686.0	  -1.26314E-3	   5.07624E-5
     687.0	  -1.24788E-3	   5.87381E-5
     688.0	  -1.22452E-3	   6.69629E-5
     689.0	  -1.28555E-3	   7.33834E-5
     690.0	  -1.36375E-3	   6.21116E-5
     691.0	  -1.25551E-3	   6.68967E-5
     692.0	  -1.25837E-3	   7.07505E-5
     693.0	  -1.37091E-3	   6.79137E-5
     694.0	  -1.34993E-3	   4.81240E-5
     695.0	  -1.39189E-3	   4.68115E-5
     696.0	  -1.31893E-3	   6.10352E-5
     697.0	  -1.23358E-3	   4.91859E-5
     698.0	  -1.21593E-3	   5.51680E-5
     699.0	  -1.17493E-3	   4.59313E-5
     700.0	  -1.22976E-3	   7.00009E-5
     701.0	  -1.20544E-3	   5.74426E-5
     702.0	  -1.26076E-3	   4.60154E-5
     703.0	  -1.07718E-3	   6.28214E-5
     704.0	  -1.13535E-3	   7.81606E-5
     705.0	  -1.19114E-3	   8.82342E-5
     706.0	  -1.41191E-3	   4.54323E-5
     707.0	  -1.12963E-3	   4.24104E-5
     708.0	  -1.15681E-3	   4.12850E-5
     709.0	  -1.12867E-3	   6.93810E-5
     710.0	  -1.33133E-3	   5.40375E-5
     711.0	  -1.09625E-3	   4.53409E-5
     712.0	  -1.13535E-3	   6.16375E-5
     713.0	  -1.06287E-3	   6.29570E-5
     714.0	  -1.09434E-3	   5.34770E-5
     715.0	  -1.11675E-3	   5.78301E-5
     716.0	  -9.73701E-4	   6.38730E-5
     717.0	  -1.09339E-3	   7.97516E-5
     718.0	  -1.06001E-3	   6.92137E-5
     719.0	  -1.04856E-3	   7.63580E-5
     720.0	  -9.67503E-4	   7.46185E-5
     721.0	  -9.76562E-4	   5.11051E-5
     722.0	  -8.64983E-4	   4.71647E-5
     723.0	  -9.24587E-4	   4.98848E-5
     724.0	  -7.49588E-4	   5.23903E-5
     725.0	  -9.51767E-4	   6.65013E-5
     726.0	  -7.10964E-4	   6.29497E-5
     727.0	  -8.95023E-4	   4.45798E-5
     728.0	  -7.85828E-4	   4.41763E-5
     729.0	  -8.48293E-4	   6.88217E-5
     730.0	  -8.00610E-4	   6.78786E-5
     731.0	  -5.82218E-4	   5.48570E-5
     732.0	  -6.07014E-4	   7.66137E-5
     733.0	  -6.63280E-4	   8.21033E-5
     734.0	  -6.43730E-4	   5.62627E-5
     735.0	  -4.04835E-4	   5.13514E-5
     736.0	  -5.04971E-4	   7.60133E-5
     737.0	  -2.93255E-4	   7.87749E-5
     738.0	  -3.89576E-4	   6.71427E-5
     739.0	  -4.43459E-4	   6.85950E-5
     740.0	  -2.90871E-4	   6.52431E-5
     741.0	  -4.04835E-4	   5.72671E-5
     742.0	  -3.13759E-4	   4.83526E-5
     743.0	  -1.55449E-4	   6.42333E-5
     744.0	  -1.81198E-4	   7.23552E-5
     745.0	  -3.01361E-4	   5.36246E-5
     746.0	  -1.36375E-4	   5.99034E-5
     747.0	  -2.19345E-4	   6.16541E-5
     748.0	  -1.03951E-4	   7.32003E-5
     749.0	  -2.01225E-4	   6.67861E-5
     750.0	  -7.15256E-6	   6.76756E-5
     751.0	   1.90735E-5	   7.21822E-5
     752.0	   1.26839E-4	   7.09334E-5
     753.0	  -5.24521E-5	   6.67623E-5
     754.0	   1.57356E-4	   4.36651E-5
     755.0	  -2.28882E-5	   5.13436E-5
     756.0	  -5.14984E-5	   5.66122E-5
     757.0	  -9.29832E-5	   5.37379E-5
     758.0	   1.92165E-4	   4.84230E-5
     759.0	   1.36852E-4	   3.93470E-5
     760.0	  -2.86102E-6	   5.18241E-5
     761.0	   2.90871E-4	   3.89243E-5
     762.0	   1.15871E-4	   4.58248E-5
     763.0	  -1.23501E-4	   6.08738E-5
     764.0	   5.24521E-5	   5.03995E-5
     765.0	   1.20163E-4	   6.11040E-5
     766.0	   2.57969E-4	   6.52779E-5
     767.0	   1.08719E-4	   6.33440E-5
     768.0	  -1.25885E-4	   6.62031E-5
     769.0	   1.32084E-4	   4.91802E-5
     770.0	   2.37465E-4	   5.76362E-5
     771.0	   2.03133E-4	   6.28250E-5
     772.0	   2.89440E-4	   4.73596E-5
     773.0	   1.30653E-4	   5.63425E-5
     774.0	   9.91821E-5	   7.16843E-5
     775.0	  -2.62260E-5	   6.64448E-5
     776.0	   3.14713E-5	   6.19778E-5
     777.0	   1.90735E-6	   4.60648E-5
     778.0	   4.00543E-5	   5.09435E-5
     779.0	  -7.82013E-5	   5.40122E-5
     780.0	   1.96934E-4	   5.59812E-5
     781.0	   8.58307E-5	   4.82089E-5
     782.0	   1.71661E-5	   5.44524E-5
     783.0	   2.99931E-4	   3.63000E-5
     784.0	   2.00272E-4	   6.23035E-5
     785.0	   3.60489E-4	   6.61275E-5
     786.0	   3.36170E-4	   6.23928E-5
     787.0	   3.08514E-4	   5.31529E-5
     788.0	   2.29359E-4	   5.35620E-5
     789.0	   3.31879E-4	   5.94050E-5
     790.0	   3.10421E-4	   6.77629E-5
     791.0	   2.65121E-4	   6.33261E-5
     792.0	   4.48227E-4	   5.90133E-5
     793.0	   3.13759E-4	   5.29847E-5
     794.0	   2.55108E-4	   6.11524E-5
     795.0	   4.31061E-4	   7.08388E-5
     796.0	   4.96864E-4	   5.20168E-5
     797.0	   3.01838E-4	   4.86386E-5
     798.0	   3.39031E-4	   4.79453E-5
     799.0	   3.27587E-4	   5.42914E-5
     800.0	   4.83513E-4	   7.10055E-5
     801.0	   5.03540E-4	   5.89757E-5
     802.0	   4.96387E-4	   6.66908E-5
     803.0	   5.55515E-4	   6.29461E-5
     804.0	   5.21660E-4	   6.57793E-5
     805.0	   5.66483E-4	   7.54940E-5
     806.0	   5.13077E-4	   7.33384E-5
     807.0	   7.04765E-4	   5.78262E-5
     808.0	   7.14302E-4	   5.37844E-5
     809.0	   8.72612E-4	   9.22923E-5
     810.0	   9.44614E-4	   5.75681E-5
     811.0	   9.22203E-4	   4.02709E-5
     812.0	   9.20773E-4	   5.49957E-5
     813.0	   7.51972E-4	   5.37188E-5
     814.0	   7.96318E-4	   5.24196E-5
     815.0	   1.10245E-3	   5.10594E-5
     816.0	   9.90868E-4	   6.30526E-5
     817.0	   1.10579E-3	   6.00626E-5
     818.0	   1.02139E-3	   6.34158E-5
     819.0	   1.35612E-3	   6.03863E-5
     820.0	   1.19019E-3	   6.19998E-5
     821.0	   1.25551E-3	   6.67436E-5
     822.0	   1.30987E-3	   5.29869E-5
     823.0	   1.43909E-3	   5.91749E-5
     824.0	   1.39284E-3	   7.33632E-5
     825.0	   1.48678E-3	   7.13330E-5
     826.0	   1.52731E-3	   7.15113E-5
     827.0	   1.64890E-3	   8.27185E-5
     828.0	   1.53255E-3	   6.68661E-5
     829.0	   1.66512E-3	   8.68289E-5
     830.0	   1.69945E-3	   6.01930E-5
     831.0	   1.80054E-3	   4.92217E-5
     832.0	   1.79815E-3	   5.22893E-5
     833.0	   1.75810E-3	   7.07778E-5
     834.0	   1.77574E-3	   5.65821E-5
     835.0	   1.90353E-3	   6.39371E-5
     836.0	   1.63889E-3	   6.77629E-5
     837.0	   1.76668E-3	   8.13172E-5
     838.0	   1.81389E-3	   4.96689E-5
     839.0	   1.88255E-3	   5.14178E-5
     840.0	   1.89447E-3	   6.89092E-5
     841.0	   1.84345E-3	   4.05354E-5
     842.0	   1.83487E-3	   6.05640E-5
     843.0	   1.92785E-3	   9.55294E-5
     844.0	   1.98746E-3	   1.13611E-4
     845.0	   1.99699E-3	   7.45164E-5
     846.0	   1.95217E-3	   6.59416E-5
     847.0	   1.92499E-3	   6.30183E-5
     848.0	   2.07138E-3	   5.39817E-5
     849.0	   2.08807E-3	   5.96266E-5
     850.0	   2.11477E-3	   6.69358E-5
     851.0	   2.12765E-3	   6.71173E-5
     852.0	   2.04611E-3	   5.98473E-5
     853.0	   1.96362E-3	   4.61499E-5
     854.0	   2.23923E-3	   5.92862E-5
     855.0	   2.20537E-3	   5.08050E-5
     856.0	   2.25258E-3	   5.55142E-5
     857.0	   2.21205E-3	   5.24727E-5
     858.0	   2.30742E-3	   6.93941E-5
     859.0	   2.28786E-3	   5.91192E-5
     860.0	   2.68841E-3	   4.86245E-5
     861.0	   2.24447E-3	   5.85909E-5
     862.0	   2.42138E-3	   6.52779E-5
     863.0	   2.36559E-3	   5.83195E-5
     864.0	   2.40278E-3	   5.49450E-5
     865.0	   2.54011E-3	   7.10711E-5
     866.0	   2.48814E-3	   7.41769E-5
     867.0	   2.54679E-3	   6.23308E-5
     868.0	   2.62308E-3	   6.24875E-5
     869.0	   2.78234E-3	   8.39071E-5
     870.0	   2.62308E-3	   7.27938E-5
     871.0	   2.75707E-3	   7.76981E-5
     872.0	   2.73514E-3	   7.26438E-5
     873.0	   2.94161E-3	   7.75311E-5
     874.0	   2.90108E-3	   8.27968E-5
     875.0	   2.82860E-3	   7.64145E-5
     876.0	   3.05843E-3	   7.71622E-5
     877.0	   2.95067E-3	   8.81130E-5
     878.0	   2.95687E-3	   6.75916E-5
     879.0	   3.08704E-3	   7.81969E-5
     880.0	   3.09420E-3	   8.86327E-5
     881.0	   3.38221E-3	   8.09219E-5
     882.0	   3.29733E-3	   8.57194E-5
     883.0	   3.19386E-3	   7.14620E-5
     884.0	   3.15762E-3	   5.86742E-5
     885.0	   3.33786E-3	   8.07405E-5
     886.0	   3.49522E-3	   7.71961E-5
     887.0	   3.54385E-3	   9.83372E-5
     888.0	   3.63636E-3	   7.69941E-5
     889.0	   3.72458E-3	   1.11999E-4
     890.0	   3.71742E-3	   1.15039E-4
     891.0	   3.72458E-3	   9.14707E-5
     892.0	   3.72076E-3	   7.17145E-5
     893.0	   3.70455E-3	   7.14683E-5
     894.0	   3.92818E-3	   9.05489E-5
     895.0	   3.87239E-3	   7.73271E-5
     896.0	   3.97491E-3	   6.99392E-5
     897.0	   3.90100E-3	   6.87307E-5
     898.0	   4.28104E-3	   7.65676E-5
     899.0	   4.02975E-3	   8.57472E-5
     900.0	   4.32491E-3	   7.55272E-5
     901.0	   4.18854E-3	   8.12808E-5
     902.0	   4.18615E-3	   1.03261E-4
     903.0	   4.25673E-3	   8.63378E-5
     904.0	   4.24719E-3	   9.67004E-5
     905.0	   4.44412E-3	   7.75077E-5
     906.0	   4.35495E-3	   8.74187E-5
     907.0	   4.37021E-3	   9.88837E-5
     908.0	   4.52232E-3	   1.12620E-4
     909.0	   4.49753E-3	   6.72645E-5
     910.0	   4.57525E-3	   1.13188E-4
     911.0	   4.72021E-3	   1.07524E-4
     912.0	   4.78601E-3	   1.11264E-4
     913.0	   4.81367E-3	   7.53418E-5
     914.0	   4.74405E-3	   5.94519E-5
     915.0	   4.90570E-3	   7.01745E-5
     916.0	   4.78792E-3	   7.25905E-5
     917.0	   4.89902E-3	   9.17908E-5
     918.0	   4.89569E-3	   1.19219E-4
     919.0	   4.93860E-3	   9.52696E-5
     920.0	   4.81844E-3	   7.67145E-5
     921.0	   5.20754E-3	   9.83094E-5
     922.0	   4.93383E-3	   7.73741E-5
     923.0	   5.05733E-3	   7.77449E-5
     924.0	   5.13506E-3	   9.11869E-5
     925.0	   5.15175E-3	   8.81053E-5
     926.0	   5.02825E-3	   8.29080E-5
     927.0	   5.35679E-3	   1.18833E-4
     928.0	   5.31340E-3	   1.42436E-4
     929.0	   5.30195E-3	   1.06438E-4
     930.0	   5.33295E-3	   9.29062E-5
     931.0	   5.48935E-3	   9.87295E-5
     932.0	   5.62191E-3	   8.43436E-5
     933.0	   5.35345E-3	   1.03617E-4
     934.0	   5.48887E-3	   1.65544E-4
     935.0	   5.79882E-3	   1.34532E-4
     936.0	   5.66578E-3	   1.21682E-4
     937.0	   5.78833E-3	   1.38296E-4
     938.0	   5.60236E-3	   1.36851E-4
     939.0	   5.71251E-3	   1.31652E-4
     940.0	   5.83935E-3	   1.12343E-4
     941.0	   6.04486E-3	   1.14966E-4
     942.0	   5.78451E-3	   1.10276E-4
     943.0	   6.07777E-3	   8.62416E-5
     944.0	   6.03628E-3	   1.47933E-4
     945.0	   6.16837E-3	   1.20671E-4
     946.0	   6.00815E-3	   1.10235E-4
     947.0	   6.09398E-3	   1.07769E-4
     948.0	   6.25706E-3	   1.75611E-4
     949.0	   6.27804E-3	   1.21841E-4
     950.0	   6.25420E-3	   1.55548E-4
     951.0	   6.44970E-3	   1.45628E-4
     952.0	   6.39009E-3	   1.17762E-4
     953.0	   6.65045E-3	   1.27935E-4
     954.0	   6.27232E-3	   1.60993E-4
     955.0	   6.65665E-3	   1.74765E-4
     956.0	   6.31714E-3	   2.07296E-4
     957.0	   6.60563E-3	   1.93236E-4
     958.0	   6.26802E-3	   1.75030E-4
     959.0	   6.90794E-3	   2.31513E-4
     960.0	   5.96046E-3	   2.36573E-4
     961.0	   6.77776E-3	   2.09266E-4
     962.0	   6.38771E-3	   1.55300E-4
     963.0	   6.31142E-3	   2.28309E-4
     964.0	   6.67286E-3	   2.22797E-4
     965.0	   6.81686E-3	   2.67777E-4
     966.0	   6.52456E-3	   2.26091E-4
     967.0	   6.49643E-3	   2.18227E-4
     968.0	   6.25038E-3	   2.63856E-4
     969.0	   7.05147E-3	   2.73643E-4
     970.0	   6.74868E-3	   2.67151E-4
     971.0	   6.80208E-3	   2.35598E-4
     972.0	   6.66952E-3	   1.90644E-4
     973.0	   7.07960E-3	   2.00158E-4
     974.0	   7.10440E-3	   2.89961E-4
     975.0	   7.04098E-3	   2.88439E-4
     976.0	   6.97231E-3	   2.76835E-4
     977.0	   7.36952E-3	   2.70702E-4
     978.0	   7.47204E-3	   3.57423E-4
     979.0	   6.53505E-3	   3.22432E-4
     980.0	   7.40099E-3	   2.87124E-4
     981.0	   7.78723E-3	   2.62584E-4
     982.0	   7.14779E-3	   2.69666E-4
     983.0	   7.50589E-3	   3.03700E-4
     984.0	   7.53450E-3	   2.99132E-4
     985.0	   8.06332E-3	   3.42883E-4
     986.0	   8.10862E-3	   2.83464E-4
     987.0	   8.02088E-3	   2.91949E-4
     988.0	   7.25842E-3	   3.38682E-4
     989.0	   7.60794E-3	   2.77177E-4
     990.0	   7.83491E-3	   2.83644E-4
     991.0	   7.78437E-3	   2.95134E-4
     992.0	   8.12721E-3	   4.42760E-4
     993.0	   8.23975E-3	   5.82351E-4
     994.0	   8.57306E-3	   4.10917E-4
     995.0	   8.08096E-3	   4.65542E-4
     996.0	   8.10146E-3	   3.16637E-4
     997.0	   8.98409E-3	   2.46247E-4
     998.0	   8.57735E-3	   3.42203E-4
     999.0	   9.06134E-3	   4.47630E-4
    1000.0	   9.53436E-3	   4.74987E-4
    1001.0	   7.95269E-3	   3.83790E-4
    1002.0	   9.10521E-3	   4.41484E-4
    1003.0	   9.04942E-3	   4.08315E-4
    1004.0	   8.74043E-3	   3.75016E-4
    1005.0	   9.45282E-3	   3.64508E-4
    1006.0	   9.58443E-3	   5.21540E-4
    1007.0	   8.71086E-3	   4.48742E-4
    1008.0	   1.00722E-2	   4.47248E-4
    1009.0	   9.46760E-3	   5.04017E-4
    1010.0	   8.59022E-3	   3.76072E-4
    1011.0	   1.00570E-2	   4.53524E-4
    1012.0	   9.44281E-3	   6.07867E-4
    1013.0	   9.12523E-3	   5.13838E-4
    1014.0	   9.35698E-3	   5.27767E-4
    1015.0	   1.04651E-2	   3.66102E-4
    1016.0	   9.14717E-3	   3.33115E-4
    1017.0	   9.97353E-3	   4.94162E-4
    1018.0	   8.65412E-3	   5.21722E-4
    1019.0	   1.08314E-2	   6.36495E-4
    1020.0	   9.06134E-3	   7.96020E-4
    1021.0	   9.30977E-3	   7.34763E-4
    1022.0	   9.32217E-3	   5.18729E-4
    1023.0	   1.04222E-2	   6.65367E-4
    1024.0	   8.94165E-3	   8.34486E-4
    1025.0	   1.00708E-2	   7.40543E-4
    1026.0	   1.00303E-2	   1.01002E-3
    1027.0	   1.06082E-2	   6.50079E-4
    1028.0	   1.01171E-2	   6.06321E-4
    1029.0	   1.03817E-2	   7.42368E-4
    1030.0	   1.00174E-2	   7.26978E-4
    1031.0	   1.14403E-2	   9.10699E-4
    1032.0	   9.52196E-3	   9.01480E-4
    1033.0	   1.12362E-2	   1.14576E-3
    1034.0	   8.06475E-3	   7.55869E-4
    1035.0	   1.08123E-2	   5.08143E-4
    1036.0	   1.07613E-2	   1.20344E-3
    1037.0	   1.15390E-2	   1.00919E-3
    1038.0	   9.61208E-3	   8.92818E-4
    1039.0	   9.66454E-3	   9.76801E-4
    1040.0	   9.99260E-3	   8.32863E-4
    1041.0	   1.07665E-2	   8.43850E-4
    1042.0	   9.30834E-3	   7.11704E-4
    1043.0	   1.33100E-2	   7.61718E-4
    1044.0	   1.06187E-2	   8.95325E-4
    1045.0	   1.28570E-2	   9.31068E-4
    1046.0	   1.08304E-2	   9.31833E-4
    1047.0	   1.17736E-2	   1.10484E-3
    1048.0	   1.04113E-2	   1.02026E-3
    1049.0	   1.13750E-2	   1.30812E-3
    1050.0	   8.99506E-3	   1.27194E-3
    1051.0	   1.16205E-2	   1.25707E-3
    1052.0	   1.35283E-2	   1.15325E-3
    1053.0	   9.81236E-3	   1.07737E-3
    1054.0	   1.07613E-2	   1.25243E-3
    1055.0	   1.39737E-2	   1.78544E-3
    1056.0	   1.03793E-2	   1.13427E-3
    1057.0	   1.48983E-2	   1.51393E-3
    1058.0	   1.26081E-2	   1.40985E-3
    1059.0	   1.19591E-2	   1.70544E-3
    1060.0	   1.10841E-2	   1.37683E-3
    1061.0	   1.18003E-2	   1.16961E-3
    1062.0	   1.27454E-2	   1.51635E-3
    1063.0	   1.02005E-2	   2.07233E-3
    1064.0	   9.98354E-3	   1.83398E-3
    1065.0	   1.15452E-2	   1.72249E-3
    1066.0	   1.44835E-2	   2.13906E-3
    1067.0	   1.16744E-2	   1.79743E-3
    1068.0	   1.38626E-2	   1.87547E-3
    1069.0	   1.12548E-2	   2.04530E-3
    1070.0	   1.26343E-2	   1.92124E-3
    1071.0	   8.74281E-3	   1.93104E-3
    1072.0	   1.36032E-2	   2.58964E-3
    1073.0	   1.00508E-2	   1.89197E-3
    1074.0	   1.34945E-2	   2.35949E-3
    1075.0	   1.30296E-2	   3.50168E-3
    1076.0	   1.42274E-2	   3.66802E-3
    1077.0	   1.34554E-2	   2.69580E-3
    1078.0	   1.28574E-2	   3.51078E-3
    1079.0	   9.53627E-3	   3.67284E-3
    1080.0	   1.39728E-2	   3.06554E-3
    1081.0	   9.45282E-3	   2.03406E-3
    1082.0	   1.37773E-2	   2.51154E-3
    1083.0	   1.18966E-2	   2.07171E-3
    1084.0	   1.27883E-2	   1.82778E-3
    1085.0	   1.22948E-2	   2.25892E-3
    1086.0	   1.36337E-2	   2.91479E-3
    1087.0	   1.42760E-2	   2.10715E-3
    1088.0	   8.05569E-3	   2.62464E-3
    1089.0	   1.26562E-2	   2.24859E-3
    1090.0	   1.30801E-2	   3.00455E-3
    1091.0	   1.24755E-2	   3.71751E-3
    1092.0	   1.10817E-2	   3.50713E-3
    1093.0	   8.81529E-3	   3.55801E-3
    1094.0	   8.55875E-3	   2.62025E-3
    1095.0	   7.25508E-3	   4.29518E-3
    1096.0	   1.85084E-2	   3.34025E-3
    1097.0	   1.01390E-2	   4.17913E-3
    1098.0	   1.29099E-2	   4.58790E-3
    1099.0	   1.68872E-2	   6.49616E-3
    1100.0	   8.69608E-3	   4.92138E-3
